File: 2025Experiencias/XRD/BulkXRD/Bulk300K.chi
# chi_2theta chi_I
0.381611 4.11162
0.39282 9.61641
0.404029 8.37655
0.415238 9.40324
0.426447 8.88794
0.437656 8.66891
0.448865 8.76015
0.460074 9.22445
0.471283 9.65305
0.482492 9.5109
0.493701 10.0919
0.50491 10.1104
0.516119 11.1833
0.527328 10.5219
0.538537 10.7014
0.549746 10.1009
0.560955 10.6208
0.572164 10.763
0.583373 10.9669
0.594582 10.4378
0.605791 10.3942
0.617 10.8913
0.628209 10.4464
0.639418 11.218
0.650627 10.8887
0.661836 11.1221
0.673045 10.6966
0.684254 10.635
0.695463 10.4643
0.706672 10.859
0.717881 10.3594
0.72909 9.98851
0.740299 10.0305
0.751508 10.4092
0.762717 9.96986
0.773926 10.2069
0.785135 10.2836
0.796344 10.454
0.807553 10.0753
0.818762 9.86596
0.829971 9.78643
0.84118 9.62936
0.852389 9.79608
0.863598 9.94775
0.874807 9.76401
0.886016 9.77247
0.897225 9.66499
0.908434 9.74512
0.919643 9.67388
0.930852 9.75831
0.942061 9.49667
0.95327 9.99619
0.964479 9.70499
0.975688 9.85672
0.986897 9.85755
0.998106 9.82184
1.00931 9.93883
1.02052 9.96169
1.03173 9.77815
1.04294 10.0587
1.05415 9.66662
1.06536 9.73853
1.07657 9.99363
1.08778 10.0198
1.09899 10.0789
1.1102 10.2478
1.1214 9.97919
1.13261 10.005
1.14382 9.92071
1.15503 10.0541
1.16624 9.92616
1.17745 10.1383
1.18866 10.1477
1.19987 10.2467
1.21108 10.1766
1.22229 10.1929
1.23349 9.98322
1.2447 10.2367
1.25591 10.1163
1.26712 10.0836
1.27833 10.0696
1.28954 10.3912
1.30075 10.1747
1.31196 10.2484
1.32317 10.3067
1.33438 10.4376
1.34558 10.4495
1.35679 10.1784
1.368 10.2459
1.37921 10.3206
1.39042 10.3756
1.40163 10.5561
1.41284 10.5251
1.42405 10.6601
1.43526 10.5776
1.44647 10.8613
1.45767 10.8122
1.46888 10.9779
1.48009 10.7868
1.4913 11.0474
1.50251 11.0984
1.51372 11.0987
1.52493 11.1429
1.53614 11.0808
1.54735 11.324
1.55856 11.596
1.56976 11.3291
1.58097 11.4536
1.59218 11.7636
1.60339 12.0067
1.6146 12.0525
1.62581 12.1402
1.63702 12.4795
1.64823 12.9312
1.65944 13.268
1.67065 13.8616
1.68185 14.7535
1.69306 15.7788
1.70427 16.8808
1.71548 17.6214
1.72669 18.3072
1.7379 18.8769
1.74911 18.9256
1.76032 18.7588
1.77153 18.2086
1.78274 17.8136
1.79394 17.222
1.80515 16.6039
1.81636 16.0479
1.82757 15.9662
1.83878 15.8273
1.84999 15.8555
1.8612 15.601
1.87241 15.5344
1.88362 15.4733
1.89483 15.3443
1.90603 15.0143
1.91724 14.7304
1.92845 14.2751
1.93966 14.2089
1.95087 13.6503
1.96208 13.156
1.97329 13.1627
1.9845 12.9093
1.99571 12.9036
2.00692 12.819
2.01812 12.5642
2.02933 12.2953
2.04054 12.3954
2.05175 12.3967
2.06296 12.1193
2.07417 12.2518
2.08538 12.2453
2.09659 12.292
2.1078 12.1856
2.11901 12.0866
2.13021 12.0926
2.14142 12.2642
2.15263 12.1546
2.16384 12.022
2.17505 12.0511
2.18626 12.096
2.19747 12.1984
2.20868 12.2161
2.21989 12.0849
2.2311 11.9319
2.2423 12.0321
2.25351 12.1175
2.26472 12.0637
2.27593 11.9316
2.28714 11.783
2.29835 11.9526
2.30956 12.0232
2.32077 11.9173
2.33198 12.1436
2.34319 11.8411
2.35439 11.8145
2.3656 12.0983
2.37681 12.0957
2.38802 11.9416
2.39923 12.1054
2.41044 11.9956
2.42165 11.9782
2.43286 11.9836
2.44407 12.1244
2.45528 12.0494
2.46648 12.0318
2.47769 11.9976
2.4889 11.9735
2.50011 12.0783
2.51132 12.0686
2.52253 12.0758
2.53374 12.0968
2.54495 12.1285
2.55616 12.2937
2.56737 12.2897
2.57857 12.2677
2.58978 12.1562
2.60099 12.2437
2.6122 12.3116
2.62341 12.1662
2.63462 12.1698
2.64583 12.1639
2.65704 12.1509
2.66825 12.1795
2.67946 12.0936
2.69066 12.1014
2.70187 12.1512
2.71308 12.175
2.72429 11.9696
2.7355 11.9444
2.74671 11.8772
2.75792 11.777
2.76913 11.8328
2.78034 11.6909
2.79155 11.6746
2.80275 11.7397
2.81396 11.5559
2.82517 11.6157
2.83638 11.6578
2.84759 11.2907
2.8588 11.3208
2.87001 11.5586
2.88122 11.3889
2.89243 11.394
2.90364 11.421
2.91484 11.3257
2.92605 11.4127
2.93726 11.4021
2.94847 11.4354
2.95968 11.3885
2.97089 11.3279
2.9821 11.3956
2.99331 11.4047
3.00452 11.4258
3.01573 11.3994
3.02693 11.4203
3.03814 11.3051
3.04935 11.3695
3.06056 11.5667
3.07177 11.3804
3.08298 11.7506
3.09419 11.6525
3.1054 11.7565
3.11661 11.742
3.12782 11.7608
3.13902 11.7598
3.15023 11.7927
3.16144 11.7236
3.17265 11.793
3.18386 11.8718
3.19507 11.8905
3.20628 11.8795
3.21749 11.8691
3.2287 12.0214
3.23991 12.077
3.25111 12.1818
3.26232 12.2708
3.27353 12.3098
3.28474 12.4375
3.29595 12.5923
3.30716 12.7041
3.31837 12.639
3.32958 12.8512
3.34079 12.9337
3.352 13.0459
3.3632 13.2751
3.37441 13.3131
3.38562 13.5366
3.39683 13.6498
3.40804 13.8618
3.41925 14.067
3.43046 14.1959
3.44167 14.4963
3.45288 14.3953
3.46409 14.7456
3.47529 15.0621
3.4865 15.1583
3.49771 15.3313
3.50892 15.2859
3.52013 15.3389
3.53134 15.6692
3.54255 15.7631
3.55376 15.9401
3.56497 16.2362
3.57618 16.2438
3.58738 16.5845
3.59859 16.7369
3.6098 16.7752
3.62101 16.849
3.63222 17.1581
3.64343 17.3763
3.65464 17.4465
3.66585 17.9432
3.67706 18.1766
3.68827 18.5068
3.69947 19.0521
3.71068 19.3838
3.72189 19.8532
3.7331 20.2396
3.74431 20.8214
3.75552 21.2449
3.76673 21.7459
3.77794 22.382
3.78915 23.0706
3.80036 23.7263
3.81156 24.2576
3.82277 25.3404
3.83398 26.2938
3.84519 27.197
3.8564 28.6332
3.86761 29.7276
3.87882 31.2885
3.89003 33.2599
3.90124 35.503
3.91245 38.325
3.92365 41.1
3.93486 45.1335
3.94607 48.988
3.95728 54.2307
3.96849 62.4409
3.9797 73.6049
3.99091 97.3001
4.00212 148.378
4.01333 307.308
4.02454 903.782
4.03574 2910.88
4.04695 6146.12
4.05816 4893.47
4.06937 1818.84
4.08058 522.702
4.09179 208.842
4.103 117.656
4.11421 82.4202
4.12542 67.466
4.13663 58.1782
4.14783 51.8969
4.15904 47.9232
4.17025 43.7144
4.18146 41.1073
4.19267 38.2244
4.20388 36.6886
4.21509 34.9392
4.2263 33.1432
4.23751 32.033
4.24872 30.7932
4.25992 29.8789
4.27113 29.1718
4.28234 28.7451
4.29355 28.2264
4.30476 27.5804
4.31597 27.4467
4.32718 27.4025
4.33839 27.0897
4.3496 27.117
4.36081 27.1362
4.37201 27.3477
4.38322 27.001
4.39443 27.3867
4.40564 27.7119
4.41685 28.2247
4.42806 28.7274
4.43927 29.2251
4.45048 29.5677
4.46169 30.2658
4.4729 30.6335
4.4841 30.9606
4.49531 31.2666
4.50652 31.7018
4.51773 32.521
4.52894 33.396
4.54015 34.5407
4.55136 35.798
4.56257 37.6603
4.57378 39.9188
4.58499 42.67
4.59619 47.2919
4.6074 55.0888
4.61861 69.8259
4.62982 105.636
4.64103 202.998
4.65224 508.261
4.66345 1261.7
4.67466 2141.49
4.68587 1867.5
4.69708 871.379
4.70828 315.143
4.71949 135.805
4.7307 76.1185
4.74191 53.0386
4.75312 42.2334
4.76433 36.238
4.77554 32.585
4.78675 29.9489
4.79796 27.776
4.80917 26.0507
4.82037 24.5345
4.83158 23.3432
4.84279 22.3603
4.854 21.5332
4.86521 20.7513
4.87642 20.1655
4.88763 19.5267
4.89884 19.209
4.91005 18.781
4.92126 18.357
4.93246 18.086
4.94367 17.6614
4.95488 17.2997
4.96609 17.1376
4.9773 16.9534
4.98851 16.6234
4.99972 16.465
5.01093 16.2634
5.02214 16.0685
5.03335 16.0047
5.04455 15.7352
5.05576 15.6314
5.06697 15.7075
5.07818 15.595
5.08939 15.4485
5.1006 15.2858
5.11181 15.2447
5.12302 15.1455
5.13423 15.012
5.14544 14.9029
5.15664 14.7819
5.16785 14.6325
5.17906 14.5142
5.19027 14.467
5.20148 14.4546
5.21269 14.3076
5.2239 14.3298
5.23511 14.3026
5.24632 14.2891
5.25753 14.0663
5.26873 14.0981
5.27994 13.9482
5.29115 13.8686
5.30236 13.6695
5.31357 13.561
5.32478 13.5418
5.33599 13.4662
5.3472 13.3532
5.35841 13.2388
5.36962 13.1476
5.38082 13.1125
5.39203 13.0819
5.40324 13.1398
5.41445 12.9428
5.42566 12.9678
5.43687 12.8968
5.44808 12.8338
5.45929 12.9007
5.4705 12.8482
5.48171 12.9238
5.49291 12.8478
5.50412 12.8374
5.51533 12.8545
5.52654 12.9106
5.53775 12.7577
5.54896 12.7153
5.56017 12.8067
5.57138 12.8795
5.58259 12.859
5.5938 12.8282
5.605 12.8245
5.61621 12.8206
5.62742 12.7581
5.63863 12.7148
5.64984 12.7352
5.66105 12.6078
5.67226 12.6178
5.68347 12.6717
5.69468 12.6051
5.70589 12.6347
5.71709 12.7211
5.7283 12.5136
5.73951 12.6136
5.75072 12.8003
5.76193 12.7397
5.77314 12.8789
5.78435 12.8747
5.79556 12.9147
5.80677 12.8573
5.81798 12.9053
5.82918 12.9919
5.84039 13.0829
5.8516 13.0462
5.86281 13.0903
5.87402 13.1544
5.88523 13.0875
5.89644 13.1868
5.90765 13.3995
5.91886 13.3348
5.93007 13.4926
5.94127 13.4482
5.95248 13.6015
5.96369 13.6479
5.9749 13.6318
5.98611 13.784
5.99732 13.7197
6.00853 13.7975
6.01974 13.9612
6.03095 13.9964
6.04216 14.1162
6.05336 14.148
6.06457 14.2533
6.07578 14.3748
6.08699 14.4002
6.0982 14.5386
6.10941 14.8484
6.12062 14.8025
6.13183 14.8945
6.14304 14.8918
6.15425 15.0919
6.16545 15.1393
6.17666 15.2756
6.18787 15.4342
6.19908 15.5337
6.21029 15.581
6.2215 15.7471
6.23271 15.9566
6.24392 16.2019
6.25513 16.3609
6.26634 16.4332
6.27754 16.5837
6.28875 16.8521
6.29996 17.1587
6.31117 17.391
6.32238 17.5539
6.33359 17.8737
6.3448 18.12
6.35601 18.4267
6.36722 18.7195
6.37843 19.1647
6.38963 19.5973
6.40084 19.9368
6.41205 20.4317
6.42326 20.9791
6.43447 21.6142
6.44568 22.1962
6.45689 23.0949
6.4681 24.0183
6.47931 25.1005
6.49052 26.3629
6.50172 28.0746
6.51293 30.0127
6.52414 32.6872
6.53535 36.8847
6.54656 43.3914
6.55777 55.3688
6.56898 82.2943
6.58019 155.379
6.5914 368.355
6.60261 856.825
6.61381 1381.71
6.62502 1271.4
6.63623 700.069
6.64744 275.79
6.65865 120.274
6.66986 69.6765
6.68107 50.1506
6.69228 41.3302
6.70349 36.4256
6.7147 33.3838
6.7259 31.2661
6.73711 29.4265
6.74832 28.0804
6.75953 26.7669
6.77074 25.8692
6.78195 25.0772
6.79316 24.3699
6.80437 23.9429
6.81558 23.4853
6.82679 22.9894
6.83799 22.7937
6.8492 22.5063
6.86041 22.2451
6.87162 22.0495
6.88283 21.8728
6.89404 21.7406
6.90525 21.6272
6.91646 21.3902
6.92767 21.2578
6.93888 20.9801
6.95008 20.942
6.96129 20.8099
6.9725 20.7607
6.98371 20.6619
6.99492 20.6611
7.00613 20.6747
7.01734 20.6213
7.02855 20.6185
7.03976 20.6486
7.05097 20.6548
7.06217 20.5999
7.07338 20.5664
7.08459 20.5741
7.0958 20.6628
7.10701 20.6726
7.11822 20.6713
7.12943 20.6754
7.14064 20.841
7.15185 20.9
7.16306 20.9721
7.17426 21.0321
7.18547 21.0163
7.19668 21.2424
7.20789 21.3453
7.2191 21.3793
7.23031 21.6027
7.24152 21.5972
7.25273 21.7065
7.26394 21.9163
7.27515 22.0492
7.28635 22.1404
7.29756 22.4228
7.30877 22.4984
7.31998 22.6824
7.33119 22.8777
7.3424 22.9469
7.35361 23.2852
7.36482 23.5161
7.37603 23.6692
7.38724 23.8327
7.39844 24.0923
7.40965 24.3938
7.42086 24.7523
7.43207 25.0069
7.44328 25.3291
7.45449 25.6491
7.4657 26.0393
7.47691 26.3488
7.48812 26.7471
7.49933 27.3039
7.51053 27.7683
7.52174 28.3397
7.53295 28.9413
7.54416 29.6937
7.55537 30.4792
7.56658 31.2007
7.57779 32.3045
7.589 33.4961
7.60021 34.7501
7.61142 36.3381
7.62262 38.2322
7.63383 40.6776
7.64504 43.7888
7.65625 47.6443
7.66746 52.9534
7.67867 60.8509
7.68988 74.0965
7.70109 98.5365
7.7123 150.534
7.72351 274.312
7.73471 569.43
7.74592 1146.96
7.75713 1749
7.76834 1740.56
7.77955 1052.97
7.79076 486.841
7.80197 227.185
7.81318 125.941
7.82439 85.9969
7.8356 67.0034
7.8468 57.0194
7.85801 50.8415
7.86922 46.6566
7.88043 43.6279
7.89164 41.0444
7.90285 39.3334
7.91406 37.8221
7.92527 36.6227
7.93648 35.6573
7.94769 34.8658
7.95889 34.4688
7.9701 34.1571
7.98131 33.9555
7.99252 34.1716
8.00373 34.5897
8.01494 35.2639
8.02615 36.8276
8.03736 39.6267
8.04857 44.9931
8.05978 58.8484
8.07098 90.4778
8.08219 194.101
8.0934 399.276
8.10461 602.962
8.11582 516.505
8.12703 279.259
8.13824 120.222
8.14945 64.5454
8.16066 45.2297
8.17187 37.6047
8.18307 33.8676
8.19428 31.2824
8.20549 29.646
8.2167 28.3223
8.22791 27.5522
8.23912 26.6408
8.25033 25.9312
8.26154 25.257
8.27275 24.7861
8.28396 24.3715
8.29516 23.8839
8.30637 23.5434
8.31758 23.0781
8.32879 22.8735
8.34 22.4961
8.35121 22.2284
8.36242 22.0609
8.37363 21.7341
8.38484 21.5893
8.39605 21.3398
8.40725 21.0895
8.41846 20.9604
8.42967 20.7017
8.44088 20.6172
8.45209 20.3091
8.4633 20.184
8.47451 20.0301
8.48572 19.818
8.49693 19.7625
8.50814 19.5861
8.51934 19.4165
8.53055 19.2573
8.54176 19.1895
8.55297 19.0766
8.56418 18.9934
8.57539 18.8128
8.5866 18.7199
8.59781 18.5804
8.60902 18.5405
8.62023 18.4929
8.63143 18.4581
8.64264 18.2677
8.65385 18.1653
8.66506 18.1259
8.67627 18.0472
8.68748 18.0283
8.69869 17.9979
8.7099 18.09
8.72111 17.9871
8.73232 17.805
8.74352 17.6932
8.75473 17.6034
8.76594 17.6309
8.77715 17.5373
8.78836 17.5598
8.79957 17.5603
8.81078 17.4565
8.82199 17.3457
8.8332 17.2086
8.84441 17.1719
8.85561 17.3109
8.86682 17.0887
8.87803 17.0817
8.88924 17.1336
8.90045 17.062
8.91166 17.0939
8.92287 17.0255
8.93408 17.0965
8.94529 17.1328
8.9565 17.1039
8.9677 17.0733
8.97891 17.081
8.99012 17.021
9.00133 17.0736
9.01254 17.1515
9.02375 17.1103
9.03496 17.0858
9.04617 17.2503
9.05738 17.1358
9.06859 17.144
9.07979 17.2513
9.091 17.3875
9.10221 17.3601
9.11342 17.425
9.12463 17.4791
9.13584 17.5873
9.14705 17.7323
9.15826 17.8166
9.16947 17.9075
9.18068 18.0565
9.19188 18.2317
9.20309 18.4436
9.2143 18.7183
9.22551 19.0348
9.23672 19.3019
9.24793 19.7803
9.25914 20.363
9.27035 21.2044
9.28156 22.405
9.29277 24.3018
9.30397 27.7715
9.31518 34.8438
9.32639 49.554
9.3376 77.5569
9.34881 121.777
9.36002 163.528
9.37123 169.768
9.38244 133.098
9.39365 85.0075
9.40486 51.5568
9.41606 35.5044
9.42727 27.9677
9.43848 24.3341
9.44969 22.461
9.4609 21.3615
9.47211 20.8007
9.48332 20.2753
9.49453 19.9701
9.50574 19.8016
9.51695 19.4036
9.52815 19.2994
9.53936 19.1935
9.55057 19.1734
9.56178 19.0668
9.57299 19.0315
9.5842 19.0524
9.59541 18.9987
9.60662 19.0269
9.61783 19.0908
9.62904 19.0146
9.64024 19.1283
9.65145 19.2
9.66266 19.2454
9.67387 19.2205
9.68508 19.4226
9.69629 19.4705
9.7075 19.4664
9.71871 19.4652
9.72992 19.6277
9.74113 19.9116
9.75233 19.9611
9.76354 20.042
9.77475 20.1619
9.78596 20.3148
9.79717 20.435
9.80838 20.5483
9.81959 20.8498
9.8308 21.0347
9.84201 21.2201
9.85322 21.4424
9.86442 21.5519
9.87563 21.8255
9.88684 21.9872
9.89805 22.17
9.90926 22.3527
9.92047 22.5826
9.93168 22.9022
9.94289 23.1848
9.9541 23.5036
9.96531 23.7854
9.97651 24.2145
9.98772 24.5907
9.99893 25.0079
10.0101 25.5222
10.0214 25.9307
10.0326 26.3998
10.0438 27.0609
10.055 27.786
10.0662 28.5033
10.0774 29.4709
10.0886 30.6093
10.0998 31.8808
10.111 33.7464
10.1222 36.1684
10.1334 39.9446
10.1446 46.6406
10.1559 59.4989
10.1671 89.1456
10.1783 156.173
10.1895 282.922
10.2007 434.233
10.2119 474.248
10.2231 346.951
10.2343 194.464
10.2455 104.846
10.2567 67.3129
10.2679 52.2043
10.2792 45.5417
10.2904 42.1883
10.3016 40.5153
10.3128 39.814
10.324 39.5549
10.3352 39.7312
10.3464 40.3753
10.3576 41.4989
10.3688 43.3364
10.38 46.1666
10.3912 50.6213
10.4025 58.4746
10.4137 72.5834
10.4249 101.246
10.4361 160.45
10.4473 275.002
10.4585 453.116
10.4697 603.642
10.4809 600.875
10.4921 445.178
10.5033 261.122
10.5145 145.056
10.5258 89.2372
10.537 63.8724
10.5482 51.5634
10.5594 44.5973
10.5706 40.3596
10.5818 37.5481
10.593 35.3904
10.6042 33.8994
10.6154 32.5054
10.6266 31.5005
10.6378 30.5421
10.6491 29.7172
10.6603 29.141
10.6715 28.5521
10.6827 28.0489
10.6939 27.5038
10.7051 27.0498
10.7163 26.7248
10.7275 26.4039
10.7387 26.0829
10.7499 25.8109
10.7611 25.5589
10.7724 25.4598
10.7836 25.1161
10.7948 24.9714
10.806 24.6867
10.8172 24.5623
10.8284 24.4733
10.8396 24.3128
10.8508 24.1024
10.862 23.9498
10.8732 23.8346
10.8844 23.7481
10.8957 23.731
10.9069 23.6512
10.9181 23.6228
10.9293 23.4969
10.9405 23.4543
10.9517 23.3696
10.9629 23.3143
10.9741 23.1702
10.9853 23.1789
10.9965 23.0984
11.0077 23.2241
11.019 23.0357
11.0302 23.0152
11.0414 23.0709
11.0526 22.8834
11.0638 22.9745
11.075 23.0217
11.0862 23.0427
11.0974 23.0388
11.1086 23.1426
11.1198 23.1307
11.131 23.1416
11.1423 23.323
11.1535 23.2811
11.1647 23.464
11.1759 23.5174
11.1871 23.6312
11.1983 23.7032
11.2095 23.857
11.2207 23.9227
11.2319 24.1534
11.2431 24.2371
11.2543 24.5251
11.2655 24.5695
11.2768 24.8632
11.288 25.0938
11.2992 25.2218
11.3104 25.6194
11.3216 26.0687
11.3328 26.3861
11.344 27.1237
11.3552 27.6507
11.3664 28.6229
11.3776 29.9639
11.3888 31.7639
11.4001 34.4143
11.4113 39.1474
11.4225 48.2632
11.4337 67.2168
11.4449 106.125
11.4561 178.048
11.4673 265.9
11.4785 310.186
11.4897 264.206
11.5009 170.13
11.5121 97.5319
11.5234 60.9807
11.5346 44.5082
11.5458 37.0634
11.557 33.0663
11.5682 30.775
11.5794 29.3146
11.5906 28.1488
11.6018 27.4005
11.613 26.8905
11.6242 26.2253
11.6354 25.8172
11.6467 25.4359
11.6579 25.0906
11.6691 24.8777
11.6803 24.7468
11.6915 24.6462
11.7027 24.2954
11.7139 24.1769
11.7251 24.1612
11.7363 24.0772
11.7475 23.9924
11.7587 23.8573
11.77 23.8118
11.7812 23.9662
11.7924 23.8021
11.8036 23.8291
11.8148 23.8138
11.826 23.8616
11.8372 23.9043
11.8484 23.9333
11.8596 23.8978
11.8708 23.9564
11.882 24.0335
11.8933 24.2329
11.9045 24.2229
11.9157 24.4378
11.9269 24.6686
11.9381 24.7756
11.9493 25.1768
11.9605 25.4646
11.9717 25.5814
11.9829 26.143
11.9941 26.4728
12.0053 27.0022
12.0166 27.645
12.0278 28.2669
12.039 29.2183
12.0502 30.5637
12.0614 31.9465
12.0726 34.4124
12.0838 37.3111
12.095 41.7954
12.1062 49.5502
12.1174 62.9923
12.1286 87.4093
12.1399 134.009
12.1511 211.371
12.1623 310.204
12.1735 383.364
12.1847 372.241
12.1959 282.358
12.2071 182.785
12.2183 113.085
12.2295 74.4346
12.2407 54.4289
12.2519 43.7053
12.2632 37.8933
12.2744 34.1447
12.2856 31.5069
12.2968 29.8297
12.308 28.3519
12.3192 27.2809
12.3304 26.4634
12.3416 25.6908
12.3528 25.1682
12.364 24.4309
12.3752 24.098
12.3864 23.7186
12.3977 23.204
12.4089 22.9107
12.4201 22.6923
12.4313 22.3592
12.4425 22.16
12.4537 21.8488
12.4649 21.6347
12.4761 21.6062
12.4873 21.2787
12.4985 21.1164
12.5097 20.9023
12.521 20.8418
12.5322 20.755
12.5434 20.7126
12.5546 20.6004
12.5658 20.2863
12.577 20.2512
12.5882 20.1291
12.5994 20.0096
12.6106 19.8649
12.6218 19.89
12.633 19.8659
12.6443 19.6869
12.6555 19.6745
12.6667 19.6415
12.6779 19.6641
12.6891 19.4507
12.7003 19.5848
12.7115 19.5536
12.7227 19.3107
12.7339 19.4346
12.7451 19.3131
12.7563 19.2517
12.7676 19.2577
12.7788 19.38
12.79 19.2968
12.8012 19.0798
12.8124 19.2133
12.8236 19.1603
12.8348 19.2003
12.846 19.0844
12.8572 19.1522
12.8684 19.1157
12.8796 19.1817
12.8909 19.0999
12.9021 19.1982
12.9133 19.0764
12.9245 19.2372
12.9357 19.3272
12.9469 19.448
12.9581 19.4116
12.9693 19.4392
12.9805 19.567
12.9917 19.7997
13.0029 19.5918
13.0142 19.6993
13.0254 19.7036
13.0366 19.8283
13.0478 19.983
13.059 19.8993
13.0702 20.0618
13.0814 20.2815
13.0926 20.3155
13.1038 20.3646
13.115 20.5417
13.1262 20.7971
13.1375 20.8909
13.1487 21.2048
13.1599 21.7272
13.1711 21.8293
13.1823 22.5996
13.1935 23.4717
13.2047 24.9272
13.2159 28.0527
13.2271 33.8334
13.2383 43.7549
13.2495 57.9375
13.2608 68.2104
13.272 66.8818
13.2832 55.3368
13.2944 41.6378
13.3056 32.4028
13.3168 27.3976
13.328 25.4157
13.3392 24.3831
13.3504 23.5171
13.3616 23.2287
13.3728 23.1731
13.3841 23.0413
13.3953 23.1069
13.4065 23.0417
13.4177 22.9814
13.4289 23.042
13.4401 23.0121
13.4513 23.2493
13.4625 23.5211
13.4737 23.4358
13.4849 23.4926
13.4961 23.6863
13.5073 23.7004
13.5186 23.9119
13.5298 24.158
13.541 24.3742
13.5522 24.5359
13.5634 24.7144
13.5746 25.0369
13.5858 25.358
13.597 25.6167
13.6082 25.732
13.6194 26.2946
13.6306 26.5243
13.6419 26.7714
13.6531 27.1506
13.6643 27.8023
13.6755 28.0722
13.6867 28.7617
13.6979 29.4284
13.7091 30.286
13.7203 31.1048
13.7315 32.0524
13.7427 33.1999
13.7539 34.7435
13.7652 36.3878
13.7764 39.0906
13.7876 42.6568
13.7988 48.3992
13.81 58.0271
13.8212 75.1053
13.8324 107.257
13.8436 162.608
13.8548 242.363
13.866 317.327
13.8772 345.447
13.8885 306.604
13.8997 221.073
13.9109 143.304
13.9221 94.5426
13.9333 69.1595
13.9445 56.5232
13.9557 50.2061
13.9669 46.9543
13.9781 45.5856
13.9893 45.6453
14.0005 47.6435
14.0118 52.2517
14.023 62.7755
14.0342 82.989
14.0454 116.227
14.0566 154.362
14.0678 176.447
14.079 163.702
14.0902 122.965
14.1014 84.7381
14.1126 60.7062
14.1238 47.9862
14.1351 41.0766
14.1463 37.3352
14.1575 35.0158
14.1687 33.4391
14.1799 32.3268
14.1911 31.1822
14.2023 30.7147
14.2135 30.1029
14.2247 29.619
14.2359 28.8995
14.2471 28.623
14.2584 28.2922
14.2696 27.928
14.2808 27.674
14.292 27.347
14.3032 27.1936
14.3144 26.9009
14.3256 26.7811
14.3368 26.6777
14.348 26.5336
14.3592 26.3379
14.3704 25.8444
14.3817 25.8425
14.3929 25.924
14.4041 25.793
14.4153 25.7685
14.4265 25.4335
14.4377 25.192
14.4489 25.1139
14.4601 25.0701
14.4713 25.0947
14.4825 25.2395
14.4937 24.9354
14.505 25.2219
14.5162 25.0479
14.5274 25.0159
14.5386 25.1364
14.5498 24.905
14.561 24.8741
14.5722 24.913
14.5834 25.109
14.5946 25.1671
14.6058 25.4552
14.617 25.4302
14.6282 25.415
14.6395 25.9532
14.6507 26.0502
14.6619 26.0862
14.6731 26.343
14.6843 26.7907
14.6955 27.4593
14.7067 27.6209
14.7179 28.8255
14.7291 29.9829
14.7403 31.5797
14.7515 33.6682
14.7628 37.3325
14.774 42.9883
14.7852 53.2922
14.7964 69.282
14.8076 94.6196
14.8188 126.492
14.83 154.639
14.8412 157.865
14.8524 139.076
14.8636 107.449
14.8748 77.5897
14.8861 57.5322
14.8973 44.7815
14.9085 37.6647
14.9197 33.3943
14.9309 30.9565
14.9421 29.0538
14.9533 27.6247
14.9645 27.1154
14.9757 26.1044
14.9869 25.8063
14.9981 25.3529
15.0094 24.611
15.0206 24.6893
15.0318 24.5115
15.043 24.048
15.0542 24.0791
15.0654 23.8414
15.0766 23.842
15.0878 23.6254
15.099 23.4426
15.1102 23.2803
15.1214 23.6267
15.1327 23.2092
15.1439 23.4428
15.1551 23.4595
15.1663 23.4063
15.1775 23.3516
15.1887 22.9678
15.1999 23.2275
15.2111 23.2903
15.2223 23.1541
15.2335 23.7323
15.2447 23.4491
15.256 23.7148
15.2672 24.3871
15.2784 25.2129
15.2896 24.9731
15.3008 26.3276
15.312 28.1961
15.3232 30.1237
15.3344 35.1301
15.3456 44.2811
15.3568 58.1413
15.368 75.5709
15.3793 88.3987
15.3905 87.5773
15.4017 72.6494
15.4129 54.8432
15.4241 42.3603
15.4353 34.2411
15.4465 31.1714
15.4577 29.5156
15.4689 29.575
15.4801 29.3854
15.4913 30.5552
15.5026 33.7297
15.5138 38.9336
15.525 48.3106
15.5362 61.5608
15.5474 75.9033
15.5586 86.2585
15.5698 86.5243
15.581 76.0615
15.5922 61.7726
15.6034 48.0083
15.6146 38.1363
15.6259 32.3424
15.6371 28.9832
15.6483 28.0645
15.6595 27.0715
15.6707 29.858
15.6819 24.4147